Folder: Battery-Digital-Twin/2021pipeline

Note: 2021pipeline/2021-NMI-Machine learning pipeline for battery state-of-health estimation.md
# 2021-NMI-Machine learning pipeline for battery state-of-health estimation

## 1. 训练特征选择模型，得到特征选取完的数据集

###### 1.1 目标：从数据集中选出对预测目标变量（Discharge_Q)最有用的特征，减少冗余特征，提高模型泛化能力和预测性能

###### 1.2 数据集：dataset_for_feature_selection.csv

###### 1.3 主要方法：

- 随机森林回归模型（RandomForestRegressor）
- 递归特征消除（RFECV）
- 交叉验证（GroupKFold）

###### 1.4 结果：从20个特征中选出了12个最优特征

![image-20250512101257213](C:\Users\huawei\AppData\Roaming\Typora\typora-user-images\image-20250512101257213.png)

它们分别为：（代号为1的）

![image-20250512101331262](C:\Users\huawei\AppData\Roaming\Typora\typora-user-images\image-20250512101331262.png)

然后根据这个结果，对我的数据集

dataset_training.csv

dataset_for_test.csv

data_calibration.csv(校准集)

进行分割（剔除无用特征），得到

data_train_fsed.csv

data_test_fsed.csv

data_calibration_fsed.csv

## 2. 训练三个预测模型

得到模型

RF_model.sav

GPR_model.sav

bayesian_ridge_model.sav

## 3. 绘制不同模型性能曲线

###### 3.1 GPR_model

![image-20250510170143864](C:\Users\huawei\AppData\Roaming\Typora\typora-user-images\image-20250510170143864.png)

![image-20250510170510852](C:\Users\huawei\AppData\Roaming\Typora\typora-user-images\image-20250510170510852.png)

![image-20250510170546536](C:\Users\huawei\AppData\Roaming\Typora\typora-user-images\image-20250510170546536.png)

![image-20250510170609959](C:\Users\huawei\AppData\Roaming\Typora\typora-user-images\image-20250510170609959.png)

![image-20250510170625175](C:\Users\huawei\AppData\Roaming\Typora\typora-user-images\image-20250510170625175.png)

![image-20250510170647128](C:\Users\huawei\AppData\Roaming\Typora\typora-user-images\image-20250510170647128.png)

![image-20250510170709112](C:\Users\huawei\AppData\Roaming\Typora\typora-user-images\image-20250510170709112.png)

###### 3.2 Bayes_Ridge_model

![image-20250510172541943](C:\Users\huawei\AppData\Roaming\Typora\typora-user-images\image-20250510172541943.png)

![image-20250510172600761](C:\Users\huawei\AppData\Roaming\Typora\typora-user-images\image-20250510172600761.png)



![image-20250510172618614](C:\Users\huawei\AppData\Roaming\Typora\typora-user-images\image-20250510172618614.png)

![image-20250510172632270](C:\Users\huawei\AppData\Roaming\Typora\typora-user-images\image-20250510172632270.png)

![image-20250510172646892](C:\Users\huawei\AppData\Roaming\Typora\typora-user-images\image-20250510172646892.png)

###### 3.3 RF_model

由于模型生成格式与上面两个不同，模型生成成功但在绘制曲线时出现了点问题

Note: README.md
# 🎯融合电压、温度和电化学阻抗谱在线监测的锂离子电池数字孪生模型构建技术 #

这是用于大创电池数字孪生存储库，主要负责收集和记录成员们代码的收集和复现，方便统一管理和更新等，其他功能待开发中……

## 现有问题😔

现在的电池数字孪生模型基本上都没有用到***电化学阻抗谱***数据，缺乏对电池内部电化学状态的精准描述，无法支持有效的电池健康状态估计、准确的故障诊断、“大提前量” 的热失控预警。

## 技术突破与前景🎉

大唐恩智浦的这个芯片的上市，有望解决现有电池管理管理系统对于电化学阻抗谱在线监测的困境。基于这个芯片的能力，我们开发的这个建模技术，具有非常大的应用前景。

<center>
    <img src="https://github.com/user-attachments/assets/22dee6cb-a47d-4329-a2ca-791b4076dcbe" alt="技术路线图" style="width: 100%; max-width: 300px;">
</center>

## 电化学阻抗谱（EIS）与电池健康状态（SOH）分析指南

### 一、EIS-SOH 核心关联机制
#### 1.1 阻抗参数对应关系
| 参数       | 物理意义              | SOH影响机制                | 频率范围    |
|------------|-----------------------|---------------------------|-------------|
| **RΩ**     | 欧姆内阻              | 电解液干涸/腐蚀导致高频阻抗增大 | `10kHz-1MHz` |
| **Rct**    | 电荷转移阻抗          | SEI层增厚/活性材料损失导致中频半圆扩大 | `100Hz-10kHz` |
| **W**      | 锂离子扩散阻抗        | 结构坍塌/电解液分解导致低频斜率改变 | `0.01Hz-1Hz` |


#### 1.2 老化模式特征识别
##### SEI 层生长 
阻抗特征：中高频区阻抗显著升高

等效电路：Rct 增大，CPE 参数变化

典型案例：石墨负极 SEI 每增厚 10nm，Rct 上升 15%
##### 锂沉积
阻抗特征：低频区新增半圆（~0.1Hz）

检测方法：差分脉冲伏安法 (DVP) 验证

影响参数：Rct-L 并联支路出现
##### 活性材料损失
阻抗特征：全频段阻抗上升，相位角变化 > 5°

量化指标：1Hz 阻抗每增加 20%，容量衰减 15%

## 利用机器学习算法结合电化学阻抗谱（EIS）评估电池健康状态（SOH）

| **场景**                | **推荐算法**                     | **理由**                                  |
|-------------------------|----------------------------------|------------------------------------------|
|  数据量小（<100组）</span> | `SVR` / `随机森林`               | 小样本表现稳定，避免过拟合                |
|  高维度原始频谱数据</span>  | `CNN` / `PCA+MLP`               | 自动提取空间特征，减少人工干预            |
| 需物理可解释性</span>    | `随机森林` + `XGBoost`          | 提供特征重要性，便于关联老化机制          |
| 实时嵌入式系统部署</span> | `LightGBM` / `量化后的MLP`      | 低计算资源需求，推理速度快                |

File: data_calibration_fsed.csv
,Capacity dV CCCT,Charge time dV CCCT,Energy dV CCCT,Entropy dV CCCT Shannon,Frechet Distance CC curve,Hausdorff Distance CC curve,Lagged Cumulated Discharge Capacity,Lagged Cumulated Discharge Energy,Lagged Pseudo Resistace,Lagged cycle time,Mean DV CCCV,Slope CCCV-CCCT,Group,Discharge_Q
0,575.323,0.00496528,575.323,8.69349,0.846925,6.4461,0.0,0.0,0.0,0.0,0.480619,18.1549,8004.0,734.076
1,567.157,0.00488425,567.157,8.64386,0.846898,6.40778,734.076,2300.32,0.0253385,0.0818945,0.479761,18.4472,8004.0,725.69
2,562.199,0.00483796,562.199,8.66888,0.846882,6.39464,1459.77,4574.21,0.0203258,0.16282,0.479035,18.6151,8004.0,720.521
3,558.499,0.00482639,558.499,8.64386,0.846878,6.39127,2180.29,6833.19,0.0197238,0.243175,0.477944,18.7507,8004.0,716.899
4,552.994,0.00478009,552.994,8.62205,0.846862,6.38177,2897.19,9082.29,0.0205093,0.323102,0.476109,18.8315,8004.0,711.609
5,549.109,0.00476851,549.109,8.60733,0.846858,6.38912,3608.79,11316.1,0.0190048,0.402414,0.474563,18.8855,8004.0,707.538
6,545.243,0.00475694,545.243,8.66534,0.846853,6.3846,4316.33,13537.9,0.0185042,0.481267,0.474172,18.9313,8004.0,703.367
7,541.127,0.00475694,541.127,8.64024,0.846853,6.40045,5019.7,15747.6,0.0179022,0.55966,0.472444,18.9565,8004.0,701.723
8,537.207,0.00472222,537.207,8.61102,0.846841,6.3649,5721.42,17953.1,0.0198643,0.63772,0.472169,19.0702,8004.0,698.006
9,533.914,0.00473379,533.914,8.62936,0.846845,6.39882,6419.43,20147.6,0.0187605,0.715337,0.470184,19.0405,8004.0,694.516
10,530.394,0.00471064,530.394,8.61839,0.846837,6.36923,7113.94,22332,0.0188618,0.792555,0.47041,19.1169,8004.0,690.917
11,527.124,0.00472226,527.124,8.59991,0.846841,6.38467,7804.86,24505.6,0.019062,0.86936,0.469604,19.1209,8004.0,687.189
12,522.991,0.00473383,522.991,8.62205,0.846845,6.3965,8492.05,26668.2,0.0196628,0.945737,0.469666,19.0489,8004.0,682.951
13,519.298,0.00473383,519.298,8.64746,0.846845,6.42435,9175,28818.2,0.019763,1.02163,0.467533,19.015,8004.0,678.974
14,515.39,0.00472228,515.39,8.61839,0.846841,6.38882,9853.98,30956.1,0.0212675,1.09707,0.468319,19.0445,8004.0,674.795
15,508.692,0.00478009,508.692,8.63662,0.846862,6.43588,10528.8,33081.8,0.0219695,1.17204,0.465869,18.9402,8004.0,667.089
16,501.064,0.00480324,501.064,8.633,0.84687,6.46794,11195.9,35185.3,0.024852,1.24614,0.464811,18.766,8004.0,659.506
17,497.787,0.00483796,497.787,8.64024,0.846882,6.48235,11855.4,37266.4,0.0250523,1.31935,0.465183,18.6729,8004.0,655.8
18,493.821,0.00486111,493.821,8.67948,0.84689,6.50965,12511.2,39337,0.0254708,1.39213,0.464332,18.543,8004.0,651.836
19,490.766,0.00483796,490.766,8.66534,0.846882,6.48112,13163,41396.1,0.0259582,1.46447,0.465342,18.582,8004.0,649.132
20,486.886,0.00489583,486.886,8.66534,0.846902,6.52596,13812.1,43446.5,0.0240533,1.53645,0.464371,18.3792,8004.0,644.828
21,484.417,0.00487268,484.417,8.65464,0.846894,6.50677,14457,45485,0.0271803,1.60797,0.463531,18.4745,8004.0,642.735
22,481.78,0.00491898,481.78,8.67243,0.84691,6.53673,15099.7,47516.4,0.025075,1.67921,0.462809,18.2766,8004.0,639.78
23,479.515,0.00493055,479.515,8.67243,0.846914,6.57974,15739.5,49540.1,0.027557,1.75014,0.462042,18.2581,8004.0,637.912
24,475.441,0.005,475.441,8.68299,0.846937,6.5847,16377.4,51557.1,0.0252503,1.82082,0.463901,18.0692,8004.0,632.844
25,473.348,0.0049537,473.348,8.65821,0.846921,6.57919,17010.2,53560.6,0.0296622,1.89096,0.461927,18.2054,8004.0,631.357
26,471.299,0.0049537,471.299,8.64746,0.846921,6.5491,17641.6,55558.2,0.026354,1.96088,0.464429,18.1973,8004.0,629.234
27,466.958,0.00505787,466.958,8.69,0.846955,6.62139,18270.8,57549.1,0.0264543,2.03056,0.464389,17.8154,8004.0,624.407
28,466.207,0.00501157,466.207,8.71081,0.84694,6.58059,18895.2,59527.9,0.031467,2.09973,0.464707,18.0595,8004.0,624.024
29,463.104,0.00499999,463.104,8.69697,0.846937,6.58848,19519.3,61504.3,0.0264543,2.1688,0.465249,17.9972,8004.0,621.041
30,459.599,0.00509259,459.599,8.73809,0.846966,6.64776,20140.3,63471.3,0.02775725,2.23752,0.464578,17.7178,8004.0,617.43
31,458.542,0.00502314,458.542,8.7039,0.846944,6.574,20757.7,65429,0.0324695,2.30585,0.466714,17.9702,8004.0,616.61
32,453.606,0.00510417,453.606,8.70044,0.84697,6.66047,21374.3,67382.5,0.0288598,2.37405,0.463905,17.6856,8004.0,610.01
33,451.732,0.00504629,451.732,8.69,0.846951,6.58489,21984.3,69319.7,0.0335615,2.44158,0.466386,17.8641,8004.0,609.085
34,445.993,0.00512731,445.993,8.72792,0.846977,6.63991,22593.4,71252.8,0.028247,2.50894,0.467216,17.5903,8004.0,606.842
35,445.393,0.00515046,445.393,8.73132,0.846984,6.66094,23200.3,73179.6,0.028749,2.5759,0.46569,17.5736,8004.0,602.143
36,444.567,0.00506944,444.567,8.71768,0.846959,6.60846,23802.4,75095.2,0.0343625,2.64251,0.46559,17.767,8004.0,602.259
37,442.94,0.00508101,442.94,8.72451,0.846963,6.62794,24404.7,77008.9,0.0289493,2.70908,0.465871,17.7503,8004.0,600.808
38,438.214,0.00515046,438.214,8.73132,0.846984,6.66872,25005.5,78917.1,0.0296503,2.77546,0.466796,17.4648,8004.0,596.552
39,437.204,0.00506945,437.204,8.69697,0.846959,6.59406,25602,80814.1,0.0346643,2.84137,0.467352,17.7275,8004.0,595.656
40,434.705,0.00506944,434.705,8.69697,0.846959,6.59341,26197.7,82706.4,0.0330275,2.90717,0.468178,17.7906,8004.0,593.665
41,432.65,0.00505786,432.65,8.69349,0.846955,6.60965,26791.4,84590.8,0.0323253,2.97269,0.4667,17.7839,8004.0,591.913
42,428.943,0.00513889,428.943,8.71768,0.846981,6.63595,27383.3,86469.1,0.0322252,3.03801,0.469073,17.5353,8004.0,588.273
43,428.313,0.00503472,428.313,8.71081,0.846948,6.5516,27971.5,88338.7,0.03784,3.10292,0.469736,17.8495,8004.0,587.816
44,424.63,0.00505787,424.63,8.69,0.846955,6.58998,28559.4,90203.7,0.0337283,3.16775,0.468206,17.8312,8004.0,584.527
45,422.56,0.00509259,422.56,8.70736,0.846966,6.62723,29143.9,92057.6,0.0337772,3.23218,0.468566,17.6707,8004.0,582.338
46,420.677,0.00504629,420.677,8.68299,0.846951,6.59493,29726.2,93903.2,0.0390355,3.29636,0.468566,17.8403,8004.0,581.234

File: data_test_fsed.csv
,Capacity dV CCCT,Charge time dV CCCT,Energy dV CCCT,Entropy dV CCCT Shannon,Frechet Distance CC curve,Hausdorff Distance CC curve,Lagged Cumulated Discharge Capacity,Lagged Cumulated Discharge Energy,Lagged Pseudo Resistace,Lagged cycle time,Mean DV CCCV,Slope CCCV-CCCT,Group,Discharge_Q
0,479.763,0.0050463,479.763,8.71425,0.846952,6.62477,21274,66784.5,0.0253945,2.36218,0.464796,17.8245,8003.0,638.181
1,478.333,0.00504629,478.333,8.72451,0.846952,6.64276,21912.2,68794.6,0.02698,2.43287,0.462726,17.9039,8003.0,637.748
2,474.428,0.00504629,474.428,8.69,0.846951,6.60025,22549.9,70802.5,0.0235705,2.50346,0.465475,17.8721,8003.0,635.898
3,473.835,0.00510417,473.835,8.70736,0.84697,6.67026,23185.8,72804.4,0.0239722,2.57373,0.463926,17.6307,8003.0,632.342
4,472.368,0.00505786,472.368,8.72792,0.846955,6.62032,23818.2,74797.9,0.0260775,2.64374,0.464707,17.8472,8003.0,631.715
5,469.697,0.00504629,469.697,8.67596,0.846952,6.61573,24449.9,76787.8,0.0239722,2.71363,0.464314,17.8404,8003.0,629.66
6,467.046,0.00513889,467.046,8.71768,0.846981,6.67887,25079.6,78770.8,0.024473,2.78326,0.463747,17.5586,8003.0,626.662
7,465.791,0.00508102,465.791,8.69697,0.846963,6.63671,25706.2,80746.1,0.027682,2.85258,0.464894,17.7345,8003.0,625.668
8,463.124,0.00506944,463.124,8.71081,0.846959,6.64337,26331.9,82716.8,0.0268023,2.92176,0.46468,17.7513,8003.0,623.803
9,460.851,0.00505786,460.851,8.69697,0.846955,6.61825,26955.7,84680.2,0.026502,2.99069,0.465209,17.7919,8003.0,621.863
10,458.196,0.00516204,458.196,8.73132,0.846988,6.69093,27577.5,86637,0.0277047,3.05938,0.465776,17.4801,8003.0,618.447
11,456.122,0.00504629,456.122,8.71081,0.846951,6.59631,28196,88585.6,0.0309128,3.12772,0.466111,17.8009,8003.0,617.397
12,452.423,0.00506944,452.423,8.71425,0.846959,6.61148,28813.4,90528.2,0.0284068,3.19589,0.467147,17.7512,8003.0,613.829
13,447.666,0.00512731,447.666,8.73132,0.846977,6.64374,29427.2,92459.2,0.0286918,3.26363,0.467193,17.5591,8003.0,608.925
14,445.62,0.00509259,445.62,8.7039,0.846966,6.6414,30036.1,94376,0.03202,3.33083,0.465262,17.71,8003.0,607.56
15,443.344,0.00523148,443.344,8.73809,0.847009,6.71481,30643.7,96286.6,0.0299137,3.39783,0.467136,17.2333,8003.0,604.451
16,442.742,0.00510416,442.742,8.70736,0.84697,6.62388,31248.2,98193,0.0336128,3.46453,0.467591,17.6386,8003.0,604.359
17,440.68,0.00509259,440.68,8.74147,0.846966,6.6274,31852.5,100095,0.030003,3.53118,0.466764,17.6865,8003.0,602.505
18,437.188,0.00525463,437.188,8.73471,0.847015,6.71819,32455,101990,0.0304035,3.5976,0.467688,17.1651,8003.0,599.499
19,437.798,0.00512731,437.798,8.73471,0.846977,6.65941,33054.5,103881,0.0346153,3.66369,0.466627,17.6138,8003.0,599.627
20,435.745,0.00508101,435.745,8.69697,0.846963,6.60042,33654.1,105767,0.031306,3.72976,0.468498,17.7031,8003.0,597.947
21,433.492,0.00515046,433.492,8.74147,0.846984,6.65857,34252.1,107647,0.0321083,3.79564,0.467199,17.5114,8003.0,595.618
22,431.43,0.00508101,431.43,8.69697,0.846963,6.59235,34847.7,109521,0.0347155,3.86127,0.468282,17.7266,8003.0,594.161
23,429.785,0.00511573,429.785,8.7039,0.846973,6.65161,35441.9,111388,0.0327103,3.92669,0.466766,17.6614,8003.0,592.288
24,426.482,0.00524306,426.482,8.75154,0.847012,6.72106,36034.2,113249,0.0330107,3.99189,0.467848,17.2563,8003.0,589.338
25,426.081,0.00509259,426.081,8.70044,0.846966,6.61465,36623.5,115105,0.0386195,4.05677,0.467942,17.655,8003.0,588.849
26,424.226,0.00509259,424.226,8.7211,0.846966,6.62355,37212.3,116956,0.0344078,4.12157,0.466568,17.6865,8003.0,587.163
27,420.957,0.00524306,420.957,8.73471,0.847012,6.71963,37799.5,118800,0.0354115,4.18618,0.467202,17.1953,8003.0,584.888
28,421.567,0.00512731,421.567,8.71081,0.846977,6.66332,38384.4,120643,0.0391202,4.25051,0.466764,17.5747,8003.0,584.616
29,419.729,0.00509258,419.729,8.7039,0.846966,6.6105,38969,122480,0.03511,4.31482,0.468567,17.655,8003.0,582.997
30,419.111,0.0053125,419.111,8.74483,0.847032,6.74906,39552,124311,0.0353103,4.37893,0.466598,17.0463,8003.0,582.471
31,419.737,0.00513888,419.737,8.70044,0.84698,6.65397,40134.5,126152,0.0395053,4.44303,0.466575,17.5119,8003.0,582.67
32,418.103,0.00515046,418.103,8.73132,0.846984,6.66152,40717.2,127985,0.0343922,4.50713,0.466496,17.5658,8003.0,581.125
33,413.787,0.00527778,413.787,8.73809,0.847022,6.72539,41298.3,129812,0.0351948,4.57104,0.467024,17.0672,8003.0,578.701
34,415.433,0.00512731,415.433,8.74147,0.846977,6.64137,41877,131640,0.0404077,4.63465,0.467123,17.5748,8003.0,580.268
35,413.789,0.00513888,413.789,8.73132,0.846981,6.65954,42457.2,133464,0.0289778,4.69835,0.467902,17.5275,8003.0,577.609
36,411.916,0.00512731,411.916,8.7211,0.846977,6.65219,43034.9,135279,0.0359957,4.76181,0.467655,17.5592,8003.0,575.997
37,409.665,0.00519676,409.665,8.71768,0.846998,6.67464,43610.9,137087,0.0359957,4.82508,0.467846,17.3635,8003.0,574.076
38,408.631,0.00511573,408.631,8.7211,0.846973,6.64347,44184.9,138893,0.0411097,4.88813,0.466999,17.5988,8003.0,573.083
39,407.199,0.00510416,407.199,8.71081,0.84697,6.6129,44758,140691,0.0369982,4.95105,0.468177,17.6701,8003.0,571.562
40,404.116,0.00521991,404.116,8.73809,0.847005,6.69786,45329.6,142484,0.0382023,5.01378,0.466765,17.302,8003.0,569.865
41,404.314,0.00510416,404.314,8.71768,0.84697,6.61762,45899.4,144275,0.043115,5.07631,0.468112,17.6308,8003.0,569.313
42,403.086,0.00511573,403.086,8.7039,0.846973,6.64059,46468.8,146060,0.039305,5.13876,0.466844,17.6379,8003.0,567.869
43,399.606,0.00523148,399.606,8.73809,0.847008,6.68686,47036.6,147839,0.039305,5.20104,0.468053,17.2562,8003.0,566.462
44,400.622,0.00511573,400.622,8.71081,0.846973,6.64162,47603.1,149620,0.0436155,5.26312,0.467257,17.591,8003.0,565.857

File: data_train_fsed.csv
,Capacity dV CCCT,Charge time dV CCCT,Energy dV CCCT,Entropy dV CCCT Shannon,Frechet Distance CC curve,Hausdorff Distance CC curve,Lagged Cumulated Discharge Capacity,Lagged Cumulated Discharge Energy,Lagged Pseudo Resistace,Lagged cycle time,Mean DV CCCV,Slope CCCV-CCCT,Group,Discharge_Q
0,578.29,0.0049537,578.29,8.66534,0.846921,6.41894,0.0,0.0,0.0,0.0,0.482614,18.2203,8001.0,739.111
3,561.234,0.00486111,561.234,8.64024,0.84689,6.43804,2195.05,6876.37,0.0176018,0.244478,0.477485,18.4843,8001.0,722.843
6,550.424,0.00479166,550.424,8.60733,0.846866,6.37983,4351.24,13637.3,0.017542,0.484497,0.476452,18.8099,8001.0,711.62
9,539.725,0.00475694,539.725,8.62205,0.846853,6.39484,6478.24,20313.9,0.018243,0.721056,0.471789,18.9385,8001.0,702.545
12,531.074,0.00474541,531.074,8.61102,0.846849,6.39063,8576.48,26907.3,0.018745,0.954242,0.471049,19.0097,8001.0,693.267
15,520.234,0.00478009,520.234,8.62571,0.846862,6.45391,10647.7,33421.5,0.0195473,1.18433,0.466681,18.8554,8001.0,681.826
18,508.326,0.00486111,508.326,8.66178,0.84689,6.53325,12678.2,39816.8,0.0218218,1.40971,0.46347,18.5172,8001.0,669.732
21,500.28,0.00491898,500.28,8.65464,0.84691,6.56315,14679.3,46124,0.0227003,1.63167,0.463652,18.4056,8001.0,661.44
24,492.305,0.00498843,492.305,8.66888,0.846932,6.60882,16655.3,52355.1,0.021979,1.8507,0.462003,18.0536,8001.0,652.781
27,484.485,0.00506945,484.485,8.72792,0.846959,6.65893,18608.2,58517.2,0.0227708,2.06704,0.461647,17.7895,8001.0,645.022
30,478.323,0.00509259,478.323,8.72792,0.846966,6.65684,20539.5,64614.9,0.023673,2.28086,0.463365,17.7088,8001.0,638.773
33,471.542,0.00506944,471.542,8.69,0.846959,6.63092,22448.3,70645.6,0.0272255,2.49215,0.464048,17.75,8001.0,631.744
36,465.153,0.00509259,465.153,8.7039,0.846966,6.63794,24335,76612.7,0.0268238,2.70079,0.464566,17.6696,8001.0,625.258
39,459.02,0.00511574,459.02,8.72792,0.846973,6.65204,26204.3,82525.6,0.0279265,2.90749,0.464023,17.6289,8001.0,619.519
42,451.587,0.00518519,451.587,8.74147,0.846994,6.69339,28057.2,88380.2,0.0273888,3.11218,0.465796,17.3702,8001.0,612.744
45,441.94,0.00515046,441.94,8.70044,0.846984,6.66634,29891.1,94173.5,0.0298957,3.31462,0.465471,17.4636,8001.0,604.287
48,437.982,0.00516203,437.982,8.75154,0.846987,6.66915,31698.4,99884.1,0.0337535,3.51395,0.466591,17.5254,8001.0,599.862
51,431.808,0.00513888,431.808,8.7211,0.84698,6.6411,33490.7,105549,0.035458,3.71151,0.466926,17.5496,8001.0,594.468
54,426.463,0.00512731,426.463,8.7039,0.846977,6.65575,35268.5,111163,0.0365607,3.90734,0.466495,17.5735,8001.0,589.447
57,422.782,0.00512731,422.782,8.71425,0.846977,6.63925,37031.6,116728,0.0391715,4.10141,0.46737,17.6048,8001.0,585.746
60,418.272,0.00512731,418.272,8.72451,0.846977,6.64103,38782.8,122254,0.0405758,4.29406,0.468502,17.5346,8001.0,581.655
63,414.392,0.00516203,414.392,8.7039,0.846987,6.62911,40522.1,127749,0.04067225,4.48535,0.467928,17.5176,8001.0,577.589
66,407.628,0.0053125,407.628,8.76155,0.847032,6.75505,42249.2,133213,0.041775,4.6752,0.467375,16.9773,8001.0,573.098
69,406.162,0.00512731,406.162,8.7211,0.846977,6.61604,43969.3,138651,0.03606,4.86406,0.469296,17.5969,8001.0,570.437
72,401.842,0.00511573,401.842,8.69349,0.846973,6.65654,45675.8,144031,0.0377208,5.05137,0.467179,17.5585,8001.0,566.753
75,397.729,0.00511573,397.729,8.72451,0.846973,6.63383,47371.1,149372,0.0388245,5.23731,0.4676,17.6211,8001.0,563.046
78,573.327,0.005,573.327,8.67243,0.846936,6.49012,0.0,0.0,0.0,0.0,0.479533,17.9959,8002.0,734.819
81,557.619,0.00483796,557.619,8.64746,0.846882,6.40122,2183.6,6843.23,0.018801,0.242933,0.478445,18.5889,8002.0,719.216
84,545.991,0.00476851,545.991,8.63662,0.846858,6.37815,4328.52,13571.5,0.018162,0.48143,0.475569,18.8841,8002.0,708.062
87,537.489,0.00474536,537.489,8.59991,0.846849,6.38466,6443.94,20213.3,0.0184363,0.716608,0.472502,19.0098,8002.0,699.255
90,529.653,0.00473383,529.653,8.60733,0.846845,6.40274,8533.84,26779.7,0.0186365,0.948867,0.470795,19.0305,8002.0,691.201
93,518.79,0.00474537,518.79,8.59991,0.846849,6.4265,10598.8,33271.7,0.0192385,1.17825,0.466709,18.9845,8002.0,679.511
96,507.046,0.00482639,507.046,8.65821,0.846878,6.51498,12622.9,39641,0.024498,1.40298,0.462907,18.6665,8002.0,667.353
99,499.478,0.00486111,499.478,8.66178,0.84689,6.52471,14617.1,45918.1,0.024951,1.6242,0.4641,18.5335,8002.0,659.752
102,490.655,0.00494213,490.655,8.65821,0.846918,6.58072,16587.8,52122.8,0.0221078,1.84262,0.462278,18.1899,8002.0,650.389
105,482.635,0.00503472,482.635,8.70044,0.846948,6.65755,18534.9,58255.3,0.024281,2.05834,0.462405,17.88,8002.0,642.135
108,475.252,0.00505787,475.252,8.67243,0.846955,6.64409,20457.8,64315.3,0.025684,2.27122,0.462269,17.8616,8002.0,634.97
111,468.856,0.00504629,468.856,8.7211,0.846952,6.60969,22354.7,70297.2,0.0318305,2.48117,0.465397,17.8628,8002.0,628.12
114,462.484,0.00506944,462.484,8.69697,0.846959,6.62436,24230.1,76218.2,0.0311295,2.68855,0.466152,17.7815,8002.0,621.463
117,455.091,0.00506944,455.091,8.73809,0.846959,6.61444,26086.6,82081.2,0.0313297,2.89379,0.466091,17.742,8002.0,614.882
120,446.87,0.00513889,446.87,8.73471,0.846981,6.64798,27925.3,87882.6,0.0300245,3.09685,0.467375,17.5572,8002.0,607.282
123,410.244,0.00489583,410.244,8.64024,0.846902,6.50168,29742.8,93616.9,0.0312108,3.35967,0.467886,18.4269,8002.0,577.919
126,411.036,0.0049537,411.036,8.68299,0.846921,6.54493,31477.1,99020.7,0.0549513,3.54931,0.467177,18.1799,8002.0,581.026
129,407.554,0.00497684,407.554,8.7039,0.846929,6.54301,33213,104434,0.0509433,3.73896,0.467631,18.1196,8002.0,578.039
132,402.616,0.0049537,402.616,8.7039,0.846921,6.51744,34941,109820,0.050041,3.92771,0.468945,18.1718,8002.0,573
135,398.288,0.00496527,398.288,8.67596,0.846925,6.54525,36651.9,115156,0.05011,4.11442,0.468471,18.1295,8002.0,568.801
138,393.159,0.00496527,393.159,8.67948,0.846925,6.52325,38349.2,120451,0.0503103,4.29951,0.46932,18.1456,8002.0,563.836
141,391.956,0.00502314,391.956,8.71768,0.846944,6.58952,40038.5,125725,0.048676,4.48395,0.466355,17.9131,8002.0,562.128
144,385.604,0.00501157,385.604,8.70044,0.84694,6.5621,41713.2,130964,0.05549,4.6665,0.468171,17.9464,8002.0,556.888
147,389.29,0.00505786,389.29,8.70736,0.846955,6.61046,43328.6,135984,0.129244,4.84285,0.466481,17.7667,8002.0,562.234
150,574.521,0.00488426,574.521,8.67243,0.846898,6.38491,0.0,0.0,0.0,0.0,0.481261,18.5373,8003.0,735.12
153,558.815,0.00480324,558.815,8.65464,0.84687,6.40454,2184.54,6837.2,0.018565,0.243097,0.477387,18.716,8003.0,720.207
156,548.726,0.00473379,548.726,8.62936,0.846845,6.36322,4333.88,13568.7,0.017641,0.482154,0.475238,18.9899,8003.0,710.058
159,541.405,0.00472222,541.405,8.62936,0.846841,6.37525,6458.02,20227,0.01764,0.718363,0.472298,19.0957,8003.0,703.213
162,534.61,0.00468754,534.61,8.60733,0.846828,6.35615,8560.79,26823.1,0.01774,0.952079,0.471647,19.2025,8003.0,696.346
165,525.161,0.0046875,525.161,8.56605,0.846828,6.36788,10642.6,33356.2,0.0188428,1.18338,0.467715,19.1941,8003.0,686.404
168,514.666,0.00478009,514.666,8.61471,0.846862,6.46807,12688.3,39784,0.0207882,1.41053,0.463486,18.8818,8003.0,675.415
171,506.891,0.00478009,506.891,8.62936,0.846862,6.44738,14707,46129.4,0.0229973,1.63453,0.463564,18.8148,8003.0,667.987
174,499.295,0.00489583,499.295,8.68299,0.846902,6.51939,16703.4,52405.6,0.0208835,1.85587,0.462232,18.4364,8003.0,659.638
177,491.921,0.00496528,491.921,8.65464,0.846925,6.58472,18677.2,58613.2,0.022487,2.0746,0.462118,18.1228,8003.0,651.969
180,485.142,0.00503472,485.142,8.72451,0.846948,6.65136,20628.9,64753.6,0.0234895,2.29074,0.462236,17.8893,8003.0,645.093