Folder: Battery-Digital-Twin/2021pipeline (part 2)

File: dataset_for_test.csv
,Capacity dV CCCT,Charge time dV CCCT,Coefficient of skewness CCCV,Discharge_Q,Energy dV CCCT,Entropy dV CCCT,Entropy dV CCCT Shannon,Frechet Distance CC curve,Group,Hausdorff Distance CC curve,Kurtosis coefficient CCCV,Lagged Cumulated Discharge Capacity,Lagged Cumulated Discharge Energy,Lagged Pseudo Resistace,Lagged cycle time,Mean DV CCCV,Recovery Voltage,SOH_discharge_capacity,Slope CCCV-CCCT
0,479.763,0.0050463,0.0229653,638.181,479.763,0.127973,8.71425,0.846952,8003.0,6.62477,0.142064,21274,66784.5,0.0253945,2.36218,0.464796,2.70046,0.868132,17.8245
1,478.333,0.00504629,0.0228234,637.748,478.333,0.129619,8.72451,0.846952,8003.0,6.64276,0.143671,21912.2,68794.6,0.02698,2.43287,0.462726,2.6999,0.867543,17.9039
2,474.428,0.00504629,0.0220674,635.898,474.428,0.13077,8.69,0.846951,8003.0,6.60025,0.139971,22549.9,70802.5,0.0235705,2.50346,0.465475,2.70026,0.865027,17.8721
3,473.835,0.00510417,0.0226293,632.342,473.835,0.130286,8.70736,0.84697,8003.0,6.67026,0.14259,23185.8,72804.4,0.0239722,2.57373,0.463926,2.70002,0.860189,17.6307
4,472.368,0.00505786,0.0220188,631.715,472.368,0.128,8.72792,0.846955,8003.0,6.62032,0.141012,23818.2,74797.9,0.0260775,2.64374,0.464707,2.69982,0.859336,17.8472
5,469.697,0.00504629,0.0217732,629.66,469.697,0.129995,8.67596,0.846952,8003.0,6.61573,0.141217,24449.9,76787.8,0.0239722,2.71363,0.464314,2.70006,0.856541,17.8404
6,467.046,0.00513889,0.0218897,626.662,467.046,0.128565,8.71768,0.846981,8003.0,6.67887,0.141597,25079.6,78770.8,0.024473,2.78326,0.463747,2.69982,0.852463,17.5586
7,465.791,0.00508102,0.0216781,625.668,465.791,0.130975,8.69697,0.846963,8003.0,6.63671,0.140998,25706.2,80746.1,0.027682,2.85258,0.464894,2.69993,0.85111,17.7345
8,463.124,0.00506944,0.0215226,623.803,463.124,0.128925,8.71081,0.846959,8003.0,6.64337,0.142097,26331.9,82716.8,0.0268023,2.92176,0.46468,2.69997,0.848573,17.7513
9,460.851,0.00505786,0.0213635,621.863,460.851,0.127783,8.69697,0.846955,8003.0,6.61825,0.140688,26955.7,84680.2,0.026502,2.99069,0.465209,2.69981,0.845934,17.7919
10,458.196,0.00516204,0.0214298,618.447,458.196,0.12909,8.73132,0.846988,8003.0,6.69093,0.141018,27577.5,86637,0.0277047,3.05938,0.465776,2.70013,0.841288,17.4801
11,456.122,0.00504629,0.0207536,617.397,456.122,0.126848,8.71081,0.846951,8003.0,6.59631,0.139454,28196,88585.6,0.0309128,3.12772,0.466111,2.69985,0.839859,17.8009
12,452.423,0.00506944,0.0205243,613.829,452.423,0.12851,8.71425,0.846959,8003.0,6.61148,0.139291,28813.4,90528.2,0.0284068,3.19589,0.467147,2.70013,0.835005,17.7512
13,447.666,0.00512731,0.0206938,608.925,447.666,0.130601,8.73132,0.846977,8003.0,6.64374,0.138825,29427.2,92459.2,0.0286918,3.26363,0.467193,2.70009,0.828334,17.5591
14,445.62,0.00509259,0.0207647,607.56,445.62,0.127428,8.7039,0.846966,8003.0,6.6414,0.140687,30036.1,94376,0.03202,3.33083,0.465262,2.70013,0.826477,17.71
15,443.344,0.00523148,0.0208718,604.451,443.344,0.12767,8.73809,0.847009,8003.0,6.71481,0.139103,30643.7,96286.6,0.0299137,3.39783,0.467136,2.69977,0.822249,17.2333
16,442.742,0.00510416,0.0204133,604.359,442.742,0.127046,8.70736,0.84697,8003.0,6.62388,0.138406,31248.2,98193,0.0336128,3.46453,0.467591,2.70009,0.822124,17.6386
17,440.68,0.00509259,0.0204548,602.505,440.68,0.128758,8.74147,0.846966,8003.0,6.6274,0.139446,31852.5,100095,0.030003,3.53118,0.466764,2.70025,0.819602,17.6865
18,437.188,0.00525463,0.0205572,599.499,437.188,0.130693,8.73471,0.847015,8003.0,6.71819,0.13827,32455,101990,0.0304035,3.5976,0.467688,2.69989,0.815512,17.1651
19,437.798,0.00512731,0.0203843,599.627,437.798,0.130361,8.73471,0.846977,8003.0,6.65941,0.140026,33054.5,103881,0.0346153,3.66369,0.466627,2.69989,0.815686,17.6138
20,435.745,0.00508101,0.0201612,597.947,435.745,0.130269,8.69697,0.846963,8003.0,6.60042,0.137532,33654.1,105767,0.031306,3.72976,0.468498,2.70001,0.813401,17.7031
21,433.492,0.00515046,0.0200979,595.618,433.492,0.130419,8.74147,0.846984,8003.0,6.65857,0.138782,34252.1,107647,0.0321083,3.79564,0.467199,2.70005,0.810233,17.5114
22,431.43,0.00508101,0.0196129,594.161,431.43,0.129793,8.69697,0.846963,8003.0,6.59235,0.13703,34847.7,109521,0.0347155,3.86127,0.468282,2.70009,0.80825,17.7266
23,429.785,0.00511573,0.0201096,592.288,429.785,0.128013,8.7039,0.846973,8003.0,6.65161,0.139962,35441.9,111388,0.0327103,3.92669,0.466766,2.70013,0.805703,17.6614
24,426.482,0.00524306,0.0202375,589.338,426.482,0.129434,8.75154,0.847012,8003.0,6.72106,0.138803,36034.2,113249,0.0330107,3.99189,0.467848,2.70033,0.80169,17.2563
25,426.081,0.00509259,0.0199239,588.849,426.081,0.126633,8.70044,0.846966,8003.0,6.61465,0.138179,36623.5,115105,0.0386195,4.05677,0.467942,2.70001,0.801025,17.655
26,424.226,0.00509259,0.0197887,587.163,424.226,0.128323,8.7211,0.846966,8003.0,6.62355,0.138962,37212.3,116956,0.0344078,4.12157,0.466568,2.69981,0.798731,17.6865
27,420.957,0.00524306,0.0201477,584.888,420.957,0.127991,8.73471,0.847012,8003.0,6.71963,0.138857,37799.5,118800,0.0354115,4.18618,0.467202,2.70001,0.795636,17.1953
28,421.567,0.00512731,0.0200422,584.616,421.567,0.127587,8.71081,0.846977,8003.0,6.66332,0.140265,38384.4,120643,0.0391202,4.25051,0.466764,2.70017,0.795266,17.5747
29,419.729,0.00509258,0.019576,582.997,419.729,0.128821,8.7039,0.846966,8003.0,6.6105,0.137711,38969,122480,0.03511,4.31482,0.468567,2.70001,0.793064,17.655
30,419.111,0.0053125,0.0204997,582.471,419.111,0.128909,8.74483,0.847032,8003.0,6.74906,0.137963,39552,124311,0.0353103,4.37893,0.466598,2.70026,0.792349,17.0463
31,419.737,0.00513888,0.0203238,582.67,419.737,0.128546,8.70044,0.84698,8003.0,6.65397,0.139037,40134.5,126152,0.0395053,4.44303,0.466575,2.699939,0.792619,17.5119
32,418.103,0.00515046,0.0201838,581.125,418.103,0.126028,8.73132,0.846984,8003.0,6.66152,0.139017,40717.2,127985,0.0343922,4.50713,0.466496,2.6999,0.790517,17.5658
33,413.787,0.00527778,0.0201496,578.701,413.787,0.128804,8.73809,0.847022,8003.0,6.72539,0.137767,41298.3,129812,0.0351948,4.57104,0.467024,2.69998,0.78722,17.0672
34,415.433,0.00512731,0.0201593,580.268,415.433,0.128343,8.74147,0.846977,8003.0,6.64137,0.138606,41877,131640,0.0404077,4.63465,0.467123,2.69986,0.789352,17.5748
35,413.789,0.00513888,0.0202379,577.609,413.789,0.127727,8.73132,0.846981,8003.0,6.65954,0.139215,42457.2,133464,0.0289778,4.69835,0.467902,2.69974,0.785735,17.5275
36,411.916,0.00512731,0.0199516,575.997,411.916,0.128887,8.7211,0.846977,8003.0,6.65219,0.139339,43034.9,135279,0.0359957,4.76181,0.467655,2.70002,0.783541,17.5592
37,409.665,0.00519676,0.0200145,574.076,409.665,0.128501,8.71768,0.846998,8003.0,6.67464,0.137664,43610.9,137087,0.0359957,4.82508,0.467846,2.699939,0.780929,17.3635
38,408.631,0.00511573,0.0198825,573.083,408.631,0.128057,8.7211,0.846973,8003.0,6.64347,0.139299,44184.9,138893,0.0411097,4.88813,0.466999,2.699939,0.779577,17.5988
39,407.199,0.00510416,0.019693,571.562,407.199,0.130403,8.71081,0.84697,8003.0,6.6129,0.137376,44758,140691,0.0369982,4.95105,0.468177,2.69986,0.777509,17.6701
40,404.116,0.00521991,0.0199436,569.865,404.116,0.128996,8.73809,0.847005,8003.0,6.69786,0.138478,45329.6,142484,0.0382023,5.01378,0.466765,2.70014,0.775201,17.302
41,404.314,0.00510416,0.0195796,569.313,404.314,0.131043,8.71768,0.84697,8003.0,6.61762,0.13767,45899.4,144275,0.043115,5.07631,0.468112,2.699939,0.77445,17.6308
42,403.086,0.00511573,0.0199735,567.869,403.086,0.127945,8.7039,0.846973,8003.0,6.64059,0.139123,46468.8,146060,0.039305,5.13876,0.466844,2.70014,0.772486,17.6379
43,399.606,0.00523148,0.0198072,566.462,399.606,0.128561,8.73809,0.847008,8003.0,6.68686,0.136897,47036.6,147839,0.039305,5.20104,0.468053,2.70014,0.770571,17.2562
44,400.622,0.00511573,0.0199769,565.857,400.622,0.129282,8.71081,0.846973,8003.0,6.64162,0.139132,47603.1,149620,0.0436155,5.26312,0.467257,2.7001,0.769749,17.591